Folder: RD-Laser/UVVIS-Fluor/Sample-1-2

Note: UVVIS-Fluor/Sample-1-2/FL-Sample-06.txt
Report Date:	13:51:15, 03/10/2021

Sample:	'GQD(EM)
File name:	Excitation_60_min_4004032.FDS
Run Date:	13:50:24, 03/10/2021
Operator:	User
Comment:	'

Instrument
Model:	F-7000 FL Spectrophotometer
Serial Number:	2468-001
ROM Version:	5J14000 06

Instrument Parameters
Measurement type:	Wavelength scan
Scan mode:	Emission
Data mode:	Fluorescence
EX WL:	500.0 nm
EM  Start WL:	510.0 nm
EM  End WL:	700.0 nm
Scan speed:	240 nm/min
Delay:	0.0 s
EX Slit:	2.5 nm
EM Slit:	2.5 nm
PMT Voltage:	400 V
Response:	4.0 s
Corrected spectra:	Off
Shutter control:	Off

Peak integration
Integration method:	Rectangular
Sensitivity:	1
Threshold:	1.000

Peaks
No.	Start(nm)	Apex(nm)	End(nm)	Height(Data)	Area(Data*nm)	Valley(nm)	Valley(Data)
1	510.0	584.6	700.0	112.9	4712.884	700.0	0.140

Data Points
nm	Data
510.0	0.140
511.0	0.141
512.0	0.145
513.0	0.151
514.0	0.160
515.0	0.173
516.0	0.186
517.0	0.204
518.0	0.222
519.0	0.244
520.0	0.271
521.0	0.302
522.0	0.335
523.0	0.373
524.0	0.415
525.0	0.463
526.0	0.514
527.0	0.572
528.0	0.638
529.0	0.708
530.0	0.786
531.0	0.872
532.0	0.963
533.0	1.063
534.0	1.172
535.0	1.293
536.0	1.426
537.0	1.569
538.0	1.727
539.0	1.900
540.0	2.087
541.0	2.287
542.0	2.509
543.0	2.746
544.0	3.005
545.0	3.283
546.0	3.583
547.0	3.910
548.0	4.258
549.0	4.631
550.0	5.042
551.0	5.492
552.0	5.984
553.0	6.526
554.0	7.139
555.0	7.802
556.0	8.556
557.0	9.423
558.0	10.43
559.0	11.58
560.0	12.97
561.0	14.60
562.0	16.58
563.0	18.94
564.0	21.73
565.0	25.00
566.0	28.83
567.0	33.23
568.0	38.18
569.0	43.65
570.0	49.58
571.0	55.85
572.0	62.29
573.0	68.76
574.0	75.26
575.0	81.50
576.0	87.43
577.0	92.92
578.0	97.84
579.0	102.1
580.0	105.7
581.0	108.5
582.0	110.6
583.0	112.1
584.0	112.8
585.0	112.9
586.0	112.4
587.0	111.5
588.0	110.2
589.0	108.4
590.0	106.4
591.0	104.1
592.0	101.6
593.0	98.89
594.0	96.06
595.0	93.09
596.0	90.10
597.0	87.08
598.0	84.03
599.0	80.97
600.0	77.91
601.0	74.87
602.0	71.85
603.0	68.89
604.0	66.01
605.0	63.19
606.0	60.39
607.0	57.68
608.0	55.02
609.0	52.45
610.0	49.91
611.0	47.46
612.0	45.10
613.0	42.80
614.0	40.58
615.0	38.46
616.0	36.41
617.0	34.43
618.0	32.54
619.0	30.72
620.0	29.00
621.0	27.35
622.0	25.78
623.0	24.26
624.0	22.84
625.0	21.48
626.0	20.17
627.0	18.95
628.0	17.79
629.0	16.69
630.0	15.66
631.0	14.68
632.0	13.74
633.0	12.86
634.0	12.03
635.0	11.26
636.0	10.53
637.0	9.856
638.0	9.213
639.0	8.610
640.0	8.041
641.0	7.512
642.0	7.015
643.0	6.550
644.0	6.115
645.0	5.711
646.0	5.330
647.0	4.973
648.0	4.642
649.0	4.331
650.0	4.045
651.0	3.773
652.0	3.526
653.0	3.296
654.0	3.080
655.0	2.878
656.0	2.688
657.0	2.508
658.0	2.341
659.0	2.189
660.0	2.043
661.0	1.907
662.0	1.779
663.0	1.660
664.0	1.548
665.0	1.445
666.0	1.348
667.0	1.259
668.0	1.175
669.0	1.097
670.0	1.022
671.0	0.955
672.0	0.891
673.0	0.831
674.0	0.776
675.0	0.725
676.0	0.675
677.0	0.630
678.0	0.588
679.0	0.546
680.0	0.509
681.0	0.475
682.0	0.443
683.0	0.414
684.0	0.387
685.0	0.362
686.0	0.338
687.0	0.315
688.0	0.294
689.0	0.275
690.0	0.257
691.0	0.241
692.0	0.225
693.0	0.211


Note: UVVIS-Fluor/Sample-1-2/FL-Sample-123.txt
Report Date:	13:41:34, 03/10/2021

Sample:	'GQD(EM)
File name:	Excitation_60_min_4004030.FDS
Run Date:	13:40:42, 03/10/2021
Operator:	User
Comment:	'

Instrument
Model:	F-7000 FL Spectrophotometer
Serial Number:	2468-001
ROM Version:	5J14000 06

Instrument Parameters
Measurement type:	Wavelength scan
Scan mode:	Emission
Data mode:	Fluorescence
EX WL:	500.0 nm
EM  Start WL:	510.0 nm
EM  End WL:	700.0 nm
Scan speed:	240 nm/min
Delay:	0.0 s
EX Slit:	2.5 nm
EM Slit:	2.5 nm
PMT Voltage:	400 V
Response:	4.0 s
Corrected spectra:	Off
Shutter control:	Off

Peak integration
Integration method:	Rectangular
Sensitivity:	1
Threshold:	1.000

Peaks
No.	Start(nm)	Apex(nm)	End(nm)	Height(Data)	Area(Data*nm)	Valley(nm)	Valley(Data)
1	510.0	588.0	700.0	151.8	5889.492	700.0	0.176

Data Points
nm	Data
510.0	0.107
511.0	0.107
512.0	0.110
513.0	0.113
514.0	0.117
515.0	0.122
516.0	0.129
517.0	0.138
518.0	0.146
519.0	0.158
520.0	0.171
521.0	0.186
522.0	0.203
523.0	0.223
524.0	0.245
525.0	0.271
526.0	0.301
527.0	0.335
528.0	0.372
529.0	0.413
530.0	0.459
531.0	0.510
532.0	0.564
533.0	0.626
534.0	0.694
535.0	0.773
536.0	0.860
537.0	0.953
538.0	1.058
539.0	1.177
540.0	1.307
541.0	1.448
542.0	1.600
543.0	1.767
544.0	1.954
545.0	2.157
546.0	2.381
547.0	2.624
548.0	2.879
549.0	3.161
550.0	3.457
551.0	3.772
552.0	4.114
553.0	4.475
554.0	4.862
555.0	5.267
556.0	5.703
557.0	6.172
558.0	6.679
559.0	7.235
560.0	7.850
561.0	8.542
562.0	9.368
563.0	10.36
564.0	11.58
565.0	13.12
566.0	15.09
567.0	17.61
568.0	20.83
569.0	24.85
570.0	29.75
571.0	35.65
572.0	42.45
573.0	50.22
574.0	58.84
575.0	68.19
576.0	78.06
577.0	88.11
578.0	98.24
579.0	108.0
580.0	117.0
581.0	125.3
582.0	132.5
583.0	138.6
584.0	143.5
585.0	147.3
586.0	149.9
587.0	151.4
588.0	151.8
589.0	151.4
590.0	150.2
591.0	148.2
592.0	145.7
593.0	142.7
594.0	139.3
595.0	135.6
596.0	131.7
597.0	127.7
598.0	123.5
599.0	119.3
600.0	115.0
601.0	110.7
602.0	106.4
603.0	102.2
604.0	98.07
605.0	93.97
606.0	89.94
607.0	86.02
608.0	82.18
609.0	78.42
610.0	74.74
611.0	71.17
612.0	67.70
613.0	64.32
614.0	61.03
615.0	57.86
616.0	54.80
617.0	51.84
618.0	48.99
619.0	46.24
620.0	43.62
621.0	41.12
622.0	38.71
623.0	36.42
624.0	34.23
625.0	32.13
626.0	30.13
627.0	28.24
628.0	26.46
629.0	24.78
630.0	23.18
631.0	21.67
632.0	20.23
633.0	18.89
634.0	17.62
635.0	16.44
636.0	15.33
637.0	14.29
638.0	13.31
639.0	12.40
640.0	11.54
641.0	10.74
642.0	9.986
643.0	9.295
644.0	8.644
645.0	8.038
646.0	7.475
647.0	6.957
648.0	6.467
649.0	6.017
650.0	5.598
651.0	5.214
652.0	4.852
653.0	4.520
654.0	4.210
655.0	3.921
656.0	3.656
657.0	3.404
658.0	3.173
659.0	2.955
660.0	2.755
661.0	2.567
662.0	2.392
663.0	2.231
664.0	2.077
665.0	1.934
666.0	1.802
667.0	1.680
668.0	1.566
669.0	1.461
670.0	1.362
671.0	1.271
672.0	1.185
673.0	1.105
674.0	1.031
675.0	0.962
676.0	0.896
677.0	0.835
678.0	0.778
679.0	0.726
680.0	0.677
681.0	0.632
682.0	0.589
683.0	0.550
684.0	0.513
685.0	0.477
686.0	0.443
687.0	0.413
688.0	0.384
689.0	0.359
690.0	0.335
691.0	0.312
692.0	0.291
693.0	0.274


Note: README.md
# RD-Laser
Random Laser Project

File: Amostra sem Rodamina-ABS.txt
"RawData - Lente direita 029 lote 18 - Shimadzu.txt_162359.spc"
"Wavelength nm."	"Abs."
190.00	3.484
194.00	3.747
198.00	3.897
202.00	3.786
206.00	3.860
210.00	3.965
214.00	3.978
218.00	3.983
222.00	3.876
226.00	3.777
230.00	3.980
234.00	3.911
238.00	3.957
242.00	3.978
246.00	3.958
250.00	3.961
254.00	3.861
258.00	3.906
262.00	3.804
266.00	3.749
270.00	3.861
274.00	3.921
278.00	3.877
282.00	3.881
286.00	3.825
290.00	3.750
294.00	3.757
298.00	3.967
302.00	3.898
306.00	3.765
310.00	3.706
314.00	3.763
318.00	3.584
322.00	3.748
326.00	3.879
330.00	3.219
334.00	3.762
338.00	3.475
342.00	3.760
346.00	3.634
350.00	3.385
354.00	2.799
358.00	2.581
362.00	2.446
366.00	2.245
370.00	2.116
374.00	1.968
378.00	1.833
382.00	1.713
386.00	1.578
390.00	1.407
394.00	1.233
398.00	1.071
402.00	0.925
406.00	0.777
410.00	0.626
414.00	0.500
418.00	0.414
422.00	0.365
426.00	0.337
430.00	0.318
434.00	0.302
438.00	0.288
442.00	0.274
446.00	0.261
450.00	0.249
454.00	0.238
458.00	0.229
462.00	0.220
466.00	0.213
470.00	0.206
474.00	0.200
478.00	0.195
482.00	0.190
486.00	0.184
490.00	0.177
494.00	0.168
498.00	0.159
502.00	0.151
506.00	0.144
510.00	0.138
514.00	0.133
518.00	0.128
522.00	0.125
526.00	0.121
530.00	0.119
534.00	0.116
538.00	0.114
542.00	0.112
546.00	0.110
550.00	0.108
554.00	0.105
558.00	0.103
562.00	0.101
566.00	0.099
570.00	0.096
574.00	0.094
578.00	0.093
582.00	0.090
586.00	0.088
590.00	0.086
594.00	0.084
598.00	0.082
602.00	0.081
606.00	0.079
610.00	0.078
614.00	0.077
618.00	0.076
622.00	0.075
626.00	0.074
630.00	0.074
634.00	0.073
638.00	0.072
642.00	0.072
646.00	0.072
650.00	0.071
654.00	0.071
658.00	0.071
662.00	0.071
666.00	0.070
670.00	0.070
674.00	0.070
678.00	0.070
682.00	0.069
686.00	0.069
690.00	0.069
694.00	0.069
698.00	0.069
702.00	0.069
706.00	0.069
710.00	0.069
714.00	0.069
718.00	0.068
722.00	0.068
726.00	0.068
730.00	0.068
734.00	0.068
738.00	0.068
742.00	0.068
746.00	0.068
750.00	0.068
754.00	0.068
758.00	0.068
762.00	0.068
766.00	0.068
770.00	0.068
774.00	0.068
778.00	0.067
782.00	0.068
786.00	0.067
790.00	0.067
794.00	0.067
798.00	0.067
802.00	0.067
806.00	0.067
810.00	0.067
814.00	0.067
818.00	0.067
822.00	0.067
826.00	0.067
830.00	0.067
834.00	0.067
838.00	0.067
842.00	0.067
846.00	0.067
850.00	0.067
854.00	0.067
858.00	0.067
862.00	0.067
866.00	0.068
870.00	0.068
874.00	0.068
878.00	0.068
882.00	0.068
886.00	0.068
890.00	0.069
894.00	0.069
898.00	0.069
902.00	0.070
906.00	0.070
910.00	0.069
914.00	0.069
918.00	0.069
922.00	0.068
926.00	0.068
930.00	0.068
934.00	0.068
938.00	0.068
942.00	0.068
946.00	0.067
950.00	0.068
954.00	0.068
958.00	0.068
962.00	0.069
966.00	0.069
970.00	0.070
974.00	0.070
978.00	0.070
982.00	0.070
986.00	0.070
990.00	0.070
994.00	0.070
998.00	0.069
1002.00	0.069
1006.00	0.069
1010.00	0.069
1014.00	0.069
1018.00	0.070
1022.00	0.069
1026.00	0.069
1030.00	0.069
1034.00	0.069
1038.00	0.069
1042.00	0.068
1046.00	0.068
1050.00	0.068
1054.00	0.068
1058.00	0.068
1062.00	0.068
1066.00	0.067
1070.00	0.067
1074.00	0.067
1078.00	0.067
1082.00	0.067
1086.00	0.068
1090.00	0.068
1094.00	0.068
1098.00	0.068
1100.00	0.069

File: Amostra sem Rodamina-TM.txt
"RawData - Lente direita 029 lote 18 - Shimadzu.txt_162154.spc"
"Wavelength nm."	"T%"
190.00	-0.002
194.00	-0.003
198.00	-0.002
202.00	0.002
206.00	-0.006
210.00	-0.002
214.00	0.005
218.00	-0.006
222.00	-0.003
226.00	-0.005
230.00	0.000
234.00	0.000
238.00	-0.002
242.00	0.017
246.00	-0.008
250.00	-0.006
254.00	-0.005
258.00	0.000
262.00	0.000
266.00	0.009
270.00	-0.003
274.00	-0.006
278.00	-0.006
282.00	-0.015
286.00	0.014
290.00	-0.011
294.00	0.009
298.00	-0.002
302.00	0.015
306.00	-0.024
310.00	0.009
314.00	0.237
318.00	0.084
322.00	0.060
326.00	-0.041
330.00	0.075
334.00	-0.006
338.00	0.024
342.00	0.014
346.00	-0.003
350.00	0.089
354.00	0.191
358.00	0.243
362.00	0.381
366.00	0.589
370.00	0.809
374.00	1.067
378.00	1.421
382.00	1.950
386.00	2.614
390.00	3.899
394.00	5.853
398.00	8.481
402.00	11.868
406.00	16.669
410.00	23.666
414.00	31.593
418.00	38.544
422.00	43.095
426.00	46.008
430.00	48.100
434.00	49.854
438.00	51.540
442.00	53.197
446.00	54.846
450.00	56.367
454.00	57.774
458.00	59.026
462.00	60.205
466.00	61.290
470.00	62.279
474.00	63.133
478.00	63.913
482.00	64.621
486.00	65.501
490.00	66.611
494.00	67.900
498.00	69.292
502.00	70.576
506.00	71.738
510.00	72.742
514.00	73.631
518.00	74.384
522.00	75.041
526.00	75.583
530.00	76.088
534.00	76.530
538.00	76.974
542.00	77.318
546.00	77.658
550.00	78.052
554.00	78.458
558.00	78.874
562.00	79.276
566.00	79.689
570.00	80.058
574.00	80.466
578.00	80.823
582.00	81.250
586.00	81.699
590.00	82.076
594.00	82.448
598.00	82.784
602.00	83.093
606.00	83.365
610.00	83.604
614.00	83.780
618.00	83.969
622.00	84.152
626.00	84.279
630.00	84.375
634.00	84.521
638.00	84.631
642.00	84.712
646.00	84.747
650.00	84.813
654.00	84.888
658.00	84.932
662.00	84.995
666.00	85.027
670.00	85.095
674.00	85.124
678.00	85.168
682.00	85.207
686.00	85.233
690.00	85.251
694.00	85.284
698.00	85.326
702.00	85.309
706.00	85.350
710.00	85.361
714.00	85.378
718.00	85.413
722.00	85.410
726.00	85.452
730.00	85.445
734.00	85.442
738.00	85.439
742.00	85.449
746.00	85.460
750.00	85.463
754.00	85.516
758.00	85.542
762.00	85.493
766.00	85.509
770.00	85.553
774.00	85.547
778.00	85.555
782.00	85.555
786.00	85.585
790.00	85.593
794.00	85.617
798.00	85.603
802.00	85.643
806.00	85.606
810.00	85.594
814.00	85.625
818.00	85.614
822.00	85.623
826.00	85.652
830.00	85.674
834.00	85.660
838.00	85.649
842.00	85.646
846.00	85.638
850.00	85.641
854.00	85.622
858.00	85.619
862.00	85.553
866.00	85.474
870.00	85.442
874.00	85.493
878.00	85.478
882.00	85.437
886.00	85.382
890.00	85.312
894.00	85.236
898.00	85.187
902.00	85.118
906.00	85.146
910.00	85.158
914.00	85.228
918.00	85.287
922.00	85.410
926.00	85.426
930.00	85.480
934.00	85.472
938.00	85.512
942.00	85.481
946.00	85.553
950.00	85.519
954.00	85.451
958.00	85.355
962.00	85.295
966.00	85.229
970.00	85.139
974.00	85.115
978.00	85.103
982.00	85.110
986.00	85.106
990.00	85.146
994.00	85.156
998.00	85.187
1002.00	85.201
1006.00	85.185
1010.00	85.184
1014.00	85.168
1018.00	85.149
1022.00	85.199
1026.00	85.252
1030.00	85.208
1034.00	85.295
1038.00	85.286
1042.00	85.361
1046.00	85.381
1050.00	85.402
1054.00	85.432
1058.00	85.474
1062.00	85.513
1066.00	85.553
1070.00	85.553
1074.00	85.580
1078.00	85.541
1082.00	85.623
1086.00	85.542
1090.00	85.390
1094.00	85.432
1098.00	85.478
1100.00	85.323